block,block_type,trial,proposition_id,question_slug,cue,mask_type,response_type,pic,correct_response,response,rt,is_correct
1,test,0,toad:visual:no:2,does-it-have-a-peel,toad,mask,pic,raccoon,no,,,
1,test,1,alligator:visual:yes:4,does-it-have-a-tail,alligator,nomask,prompt,,yes,,,
1,test,2,bike:nonvisual:no:4,is-it-found-at-tables,bike,mask,prompt,,no,,,
1,test,3,alligator:nonvisual:yes:2,is-it-a-reptile,alligator,mask,prompt,,yes,,,
1,test,4,zebra:nonvisual:yes:2,does-it-run-fast,zebra,nomask,prompt,,yes,,,
1,test,5,strawberry:nonvisual:yes:2,does-it-taste-sweet,strawberry,nomask,pic,strawberry,yes,,,
1,test,6,table:visual:no:2,does-it-have-a-nose,table,mask,prompt,,no,,,
1,test,7,mouse:visual:yes:4,does-it-have-whiskers,mouse,nomask,pic,mouse,yes,,,
1,test,8,swan:nonvisual:yes:2,is-it-a-bird,swan,mask,prompt,,yes,,,
1,test,9,pig:visual:yes:5,is-it-muddy,pig,mask,pic,pig,yes,,,
1,test,10,pineapple:nonvisual:yes:1,is-it-juicy,pineapple,mask,prompt,,yes,,,
1,test,11,chicken:visual:no:4,does-it-have-four-legs,chicken,nomask,prompt,,no,,,
1,test,12,giraffe:nonvisual:yes:2,does-it-live-in-africa,giraffe,mask,prompt,,yes,,,
1,test,13,donkey:visual:yes:4,does-it-have-hooves,donkey,nomask,prompt,,yes,,,
1,test,14,dog:nonvisual:yes:1,does-it-bark,dog,nomask,prompt,,yes,,,
1,test,15,train:nonvisual:yes:1,is-it-used-for-freight,train,nomask,pic,train,yes,,,
1,test,16,zebra:visual:yes:2,does-it-have-four-legs,zebra,nomask,pic,zebra,yes,,,
1,test,17,giraffe:visual:yes:1,does-it-have-spots,giraffe,nomask,prompt,,yes,,,
1,test,18,jacket:visual:yes:4,does-it-have-sleeves,jacket,mask,prompt,,yes,,,
1,test,19,pig:visual:no:4,does-it-have-feathers,pig,mask,prompt,,no,,,
1,test,20,camel:nonvisual:yes:5,does-it-spit,camel,nomask,prompt,,yes,,,
1,test,21,grasshopper:visual:yes:4,does-it-have-antennae,grasshopper,mask,prompt,,yes,,,
1,test,22,carrot:visual:yes:4,does-it-have-a-pointed-end,carrot,nomask,prompt,,yes,,,
1,test,23,donkey:nonvisual:no:4,does-it-chase-cats,donkey,mask,prompt,,no,,,
1,test,24,deer:visual:yes:4,does-it-have-hooves,deer,nomask,prompt,,yes,,,
1,test,25,grasshopper:nonvisual:yes:2,does-it-live-in-grass,grasshopper,nomask,pic,grasshopper,yes,,,
1,test,26,apple:nonvisual:yes:5,is-it-used-for-cider,apple,nomask,prompt,,yes,,,
1,test,27,lion:nonvisual:no:4,does-it-lay-eggs,lion,nomask,prompt,,no,,,
1,test,28,tiger:nonvisual:yes:1,is-it-a-carnivore,tiger,nomask,prompt,,yes,,,
1,test,29,apple:visual:yes:4,is-it-round,apple,nomask,prompt,,yes,,,
1,test,30,strawberry:visual:yes:2,does-it-have-seeds,strawberry,mask,prompt,,yes,,,
1,test,31,chair:nonvisual:no:5,is-it-an-animal,chair,mask,prompt,,no,,,
1,test,32,carrot:nonvisual:yes:3,does-it-grow-underground,carrot,nomask,prompt,,yes,,,
1,test,33,toad:visual:no:3,does-it-have-a-tail,toad,nomask,prompt,,no,,,
1,test,34,train:nonvisual:no:4,does-it-produce-offspring,train,mask,prompt,,no,,,
1,test,35,bottle:nonvisual:yes:2,is-it-used-for-holding-liquids,bottle,nomask,prompt,,yes,,,
1,test,36,dog:visual:yes:4,does-it-have-hair,dog,mask,prompt,,yes,,,
1,test,37,pineapple:nonvisual:yes:2,is-it-tropical,pineapple,nomask,prompt,,yes,,,
1,test,38,rabbit:nonvisual:no:5,is-it-a-fruit,rabbit,nomask,prompt,,no,,,
1,test,39,chair:nonvisual:yes:5,is-it-found-at-tables,chair,nomask,prompt,,yes,,,
1,test,40,bike:visual:yes:1,does-it-have-handle-bars,bike,nomask,pic,bike,yes,,,
1,test,41,penguin:nonvisual:yes:3,does-it-live-in-the-arctic,penguin,mask,prompt,,yes,,,
1,test,42,swan:visual:yes:2,does-it-have-a-beak,swan,nomask,prompt,,yes,,,
1,test,43,banana:nonvisual:yes:1,is-it-a-fruit,banana,nomask,prompt,,yes,,,
1,test,44,lion:nonvisual:yes:1,is-it-an-animal,lion,mask,prompt,,yes,,,
1,test,45,mouse:nonvisual:no:1,is-it-a-fruit,mouse,nomask,prompt,,no,,,
1,test,46,table:nonvisual:yes:2,is-it-found-in-kitchens,table,nomask,pic,table,yes,,,
1,test,47,tiger:nonvisual:yes:2,is-it-an-animal,tiger,mask,prompt,,yes,,,
1,test,48,elephant:visual:yes:4,does-it-have-a-tail,elephant,nomask,prompt,,yes,,,
1,test,49,chair:visual:yes:4,does-it-have-a-seat,chair,mask,prompt,,yes,,,
1,test,50,raccoon:visual:no:2,does-it-have-seeds,raccoon,mask,pic,alligator,no,,,
2,test,51,lion:nonvisual:yes:5,does-it-roar,lion,mask,pic,lion,yes,,,
2,test,52,carrot:nonvisual:yes:4,is-it-a-root,carrot,nomask,pic,carrot,yes,,,
2,test,53,donkey:visual:no:2,does-it-have-a-pointed-end,donkey,nomask,prompt,,no,,,
2,test,54,tiger:visual:no:1,is-it-black,tiger,nomask,prompt,,no,,,
2,test,55,swan:nonvisual:yes:3,does-it-live-on-water,swan,nomask,prompt,,yes,,,
2,test,56,apple:nonvisual:yes:2,does-it-grow-on-trees,apple,nomask,pic,apple,yes,,,
2,test,57,strawberry:nonvisual:yes:1,is-it-a-fruit,strawberry,nomask,prompt,,yes,,,
2,test,58,train:visual:yes:2,does-it-have-an-engine,train,nomask,prompt,,yes,,,
2,test,59,pineapple:visual:yes:3,does-it-have-skin,pineapple,mask,prompt,,yes,,,
2,test,60,mouse:visual:yes:3,does-it-have-fur,mouse,mask,pic,mouse,yes,,,
2,test,61,penguin:visual:yes:4,does-it-have-wings,penguin,mask,pic,penguin,yes,,,
2,test,62,alligator:visual:yes:3,does-it-have-scales,alligator,nomask,prompt,,yes,,,
2,test,63,strawberry:nonvisual:no:4,does-it-eat,strawberry,nomask,prompt,,no,,,
2,test,64,chair:nonvisual:yes:2,is-it-furniture,chair,nomask,prompt,,yes,,,
2,test,65,bike:nonvisual:yes:3,does-it-have-different-speeds,bike,mask,prompt,,yes,,,
2,test,66,apple:visual:yes:3,does-it-have-seeds,apple,mask,pic,apple,yes,,,
2,test,67,toad:nonvisual:no:3,is-it-furry,toad,nomask,prompt,,no,,,
2,test,68,train:visual:no:4,does-it-have-long-legs,train,nomask,pic,table,no,,,
2,test,69,dog:nonvisual:yes:2,is-it-an-animal,dog,mask,pic,dog,yes,,,
2,test,70,lion:visual:yes:1,does-it-have-a-mane,lion,mask,prompt,,yes,,,
2,test,71,donkey:nonvisual:yes:3,is-it-a-mammal,donkey,nomask,prompt,,yes,,,
2,test,72,alligator:visual:no:5,is-it-made-of-metal,alligator,mask,prompt,,no,,,
2,test,73,chicken:visual:yes:1,does-it-have-feathers,chicken,mask,pic,chicken,yes,,,
2,test,74,table:visual:no:5,is-it-round,table,mask,pic,raccoon,no,,,
2,test,75,carrot:nonvisual:yes:2,is-it-eaten-by-rabbits,carrot,mask,prompt,,yes,,,
2,test,76,table:nonvisual:yes:4,is-it-furniture,table,nomask,prompt,,yes,,,
2,test,77,banana:visual:yes:2,is-it-long,banana,nomask,pic,banana,yes,,,
2,test,78,pig:visual:yes:1,is-it-pink,pig,nomask,pic,pig,yes,,,
2,test,79,table:nonvisual:yes:1,is-it-used-for-eating-on,table,nomask,prompt,,yes,,,
2,test,80,toad:visual:yes:4,does-it-have-a-long-tongue,toad,nomask,prompt,,yes,,,
2,test,81,tiger:visual:yes:1,does-it-have-stripes,tiger,nomask,prompt,,yes,,,
2,test,82,zebra:visual:yes:5,does-it-have-jaws,zebra,mask,prompt,,yes,,,
2,test,83,deer:nonvisual:yes:5,is-it-timid,deer,nomask,prompt,,yes,,,
2,test,84,giraffe:visual:no:1,is-it-green,giraffe,mask,prompt,,no,,,
2,test,85,camel:nonvisual:no:2,is-it-graceful,camel,mask,prompt,,no,,,
2,test,86,elephant:visual:yes:2,does-it-have-ears,elephant,mask,prompt,,yes,,,
2,test,87,chicken:visual:yes:4,does-it-have-legs,chicken,mask,prompt,,yes,,,
2,test,88,bike:nonvisual:yes:2,is-it-used-for-racing,bike,mask,prompt,,yes,,,
2,test,89,penguin:visual:yes:3,does-it-have-feet,penguin,nomask,prompt,,yes,,,
2,test,90,camel:visual:yes:4,is-it-large,camel,nomask,prompt,,yes,,,
2,test,91,chair:visual:yes:1,does-it-have-legs,chair,mask,prompt,,yes,,,
2,test,92,raccoon:nonvisual:yes:3,is-it-nocturnal,raccoon,mask,prompt,,yes,,,
2,test,93,giraffe:visual:no:2,does-it-have-warts,giraffe,nomask,prompt,,no,,,
2,test,94,jacket:nonvisual:yes:1,is-it-clothing,jacket,mask,prompt,,yes,,,
2,test,95,rabbit:visual:no:3,does-it-have-a-seat,rabbit,nomask,pic,giraffe,no,,,
2,test,96,pig:nonvisual:yes:3,is-it-eaten-as-bacon,pig,nomask,prompt,,yes,,,
2,test,97,donkey:visual:no:1,is-it-round,donkey,nomask,prompt,,no,,,
2,test,98,pineapple:nonvisual:yes:5,is-it-prickly,pineapple,mask,prompt,,yes,,,
2,test,99,zebra:visual:no:1,is-it-red,zebra,nomask,pic,chicken,no,,,
2,test,100,jacket:visual:yes:2,does-it-have-pockets,jacket,mask,prompt,,yes,,,
2,test,101,grasshopper:nonvisual:yes:3,is-it-found-in-summer,grasshopper,mask,pic,grasshopper,yes,,,
2,test,102,alligator:nonvisual:no:1,is-it-a-mammal,alligator,mask,pic,penguin,no,,,
3,test,103,toad:visual:yes:3,is-it-small,toad,nomask,prompt,,yes,,,
3,test,104,tiger:visual:yes:4,does-it-have-whiskers,tiger,mask,prompt,,yes,,,
3,test,105,chair:nonvisual:no:3,is-it-a-root,chair,nomask,pic,donkey,no,,,
3,test,106,carrot:nonvisual:yes:1,is-it-a-vegetable,carrot,mask,prompt,,yes,,,
3,test,107,toad:nonvisual:yes:4,does-it-eat-insects,toad,mask,pic,toad,yes,,,
3,test,108,chicken:nonvisual:no:4,is-it-worn-for-the-rain,chicken,nomask,prompt,,no,,,
3,test,109,carrot:nonvisual:no:1,is-it-used-for-holding-things,carrot,nomask,prompt,,no,,,
3,test,110,tiger:visual:no:3,does-it-have-large-ears,tiger,mask,prompt,,no,,,
3,test,111,pineapple:visual:yes:2,does-it-have-an-inside,pineapple,nomask,pic,pineapple,yes,,,
3,test,112,chair:visual:yes:3,does-it-have-armrests,chair,nomask,prompt,,yes,,,
3,test,113,train:nonvisual:yes:4,is-it-loud,train,nomask,pic,train,yes,,,
3,test,114,jacket:visual:yes:1,does-it-have-a-zipper,jacket,mask,pic,jacket,yes,,,
3,test,115,donkey:nonvisual:yes:4,is-it-furry,donkey,mask,prompt,,yes,,,
3,test,116,giraffe:visual:yes:3,does-it-have-long-legs,giraffe,mask,prompt,,yes,,,
3,test,117,mouse:visual:yes:1,does-it-have-a-tail,mouse,mask,prompt,,yes,,,
3,test,118,penguin:nonvisual:yes:2,is-it-unable-to-fly,penguin,mask,pic,penguin,yes,,,
3,test,119,donkey:visual:yes:2,does-it-have-four-legs,donkey,mask,pic,donkey,yes,,,
3,test,120,deer:nonvisual:yes:3,is-it-a-mammal,deer,mask,prompt,,yes,,,
3,test,121,zebra:visual:no:2,does-it-have-antennae,zebra,nomask,prompt,,no,,,
3,test,122,penguin:visual:yes:2,does-it-have-a-beak,penguin,nomask,prompt,,yes,,,
3,test,123,alligator:nonvisual:yes:5,does-it-eat-people,alligator,mask,pic,alligator,yes,,,
3,test,124,raccoon:nonvisual:yes:4,does-it-produce-offspring,raccoon,nomask,prompt,,yes,,,
3,test,125,swan:visual:yes:3,does-it-have-feathers,swan,nomask,prompt,,yes,,,
3,test,126,zebra:nonvisual:yes:3,does-it-live-in-africa,zebra,mask,prompt,,yes,,,
3,test,127,banana:nonvisual:yes:2,does-it-taste-good,banana,nomask,prompt,,yes,,,
3,test,128,pig:visual:no:5,does-it-have-fur,pig,nomask,prompt,,no,,,
3,test,129,apple:visual:yes:1,is-it-red,apple,nomask,prompt,,yes,,,
3,test,130,pig:visual:yes:4,does-it-have-legs,pig,nomask,pic,pig,yes,,,
3,test,131,pineapple:visual:yes:4,is-it-yellow-inside,pineapple,nomask,prompt,,yes,,,
3,test,132,table:visual:yes:1,is-it-made-of-wood,table,mask,pic,table,yes,,,
3,test,133,mouse:nonvisual:yes:5,does-it-eat-cheese,mouse,nomask,prompt,,yes,,,
3,test,134,banana:visual:yes:1,is-it-yellow,banana,mask,prompt,,yes,,,
3,test,135,grasshopper:visual:no:4,is-it-long,grasshopper,mask,pic,banana,no,,,
3,test,136,strawberry:visual:yes:4,is-it-small,strawberry,nomask,pic,strawberry,yes,,,
3,test,137,toad:visual:yes:1,is-it-green,toad,nomask,prompt,,yes,,,
3,test,138,apple:nonvisual:yes:3,is-it-eaten-in-pies,apple,nomask,pic,apple,yes,,,
3,test,139,camel:nonvisual:no:1,is-it-a-bird,camel,mask,prompt,,no,,,
3,test,140,bottle:visual:yes:2,is-it-made-of-plastic,bottle,nomask,prompt,,yes,,,
3,test,141,jacket:nonvisual:yes:2,is-it-worn-in-cold-temperatures,jacket,mask,prompt,,yes,,,
3,test,142,elephant:visual:yes:1,is-it-grey,elephant,nomask,pic,elephant,yes,,,
3,test,143,bike:visual:yes:3,does-it-have-gears,bike,mask,prompt,,yes,,,
3,test,144,giraffe:visual:yes:4,is-it-brown,giraffe,mask,prompt,,yes,,,
3,test,145,strawberry:visual:yes:3,does-it-have-green-leaves,strawberry,nomask,pic,strawberry,yes,,,
3,test,146,dog:nonvisual:yes:4,is-it-used-for-protection,dog,nomask,prompt,,yes,,,
3,test,147,alligator:nonvisual:no:3,is-it-used-for-freight,alligator,mask,prompt,,no,,,
3,test,148,donkey:nonvisual:yes:5,does-it-make-noises,donkey,nomask,pic,donkey,yes,,,
3,test,149,deer:visual:no:4,does-it-have-a-cushion,deer,nomask,prompt,,no,,,
3,test,150,lion:nonvisual:no:3,does-it-waddle,lion,nomask,prompt,,no,,,
3,test,151,rabbit:nonvisual:yes:3,is-it-edible,rabbit,mask,prompt,,yes,,,
3,test,152,table:nonvisual:yes:3,is-it-found-in-dining-rooms,table,mask,prompt,,yes,,,
3,test,153,camel:nonvisual:no:4,does-it-live-on-a-farm,camel,mask,prompt,,no,,,
4,test,154,toad:nonvisual:yes:1,does-it-eat,toad,mask,pic,toad,yes,,,
4,test,155,dog:nonvisual:yes:5,does-it-chase-cats,dog,mask,prompt,,yes,,,
4,test,156,donkey:nonvisual:no:2,does-it-grow-on-trees,donkey,nomask,pic,chicken,no,,,
4,test,157,tiger:nonvisual:no:5,is-it-used-for-relaxing,tiger,nomask,prompt,,no,,,
4,test,158,apple:visual:no:3,does-it-have-a-beak,apple,mask,prompt,,no,,,
4,test,159,zebra:visual:yes:3,does-it-have-hooves,zebra,nomask,prompt,,yes,,,
4,test,160,carrot:visual:yes:3,is-it-long,carrot,nomask,prompt,,yes,,,
4,test,161,table:visual:yes:3,does-it-have-legs,table,mask,prompt,,yes,,,
4,test,162,mouse:nonvisual:yes:2,is-it-an-animal,mouse,nomask,prompt,,yes,,,
4,test,163,bike:visual:yes:4,is-it-made-of-metal,bike,mask,prompt,,yes,,,
4,test,164,grasshopper:visual:no:5,does-it-have-long-legs,grasshopper,mask,prompt,,no,,,
4,test,165,giraffe:nonvisual:yes:1,does-it-eat-leaves,giraffe,mask,prompt,,yes,,,
4,test,166,grasshopper:visual:yes:1,is-it-green,grasshopper,mask,prompt,,yes,,,
4,test,167,chair:nonvisual:yes:6,is-it-used-in-circuses,chair,nomask,prompt,,yes,,,
4,test,168,pineapple:nonvisual:yes:4,does-it-grow-in-hawaii,pineapple,nomask,prompt,,yes,,,
4,test,169,elephant:nonvisual:yes:2,does-it-live-in-africa,elephant,nomask,prompt,,yes,,,
4,test,170,swan:nonvisual:yes:4,does-it-lay-eggs,swan,mask,pic,swan,yes,,,
4,test,171,train:visual:yes:1,does-it-have-a-caboose,train,nomask,prompt,,yes,,,
4,test,172,chicken:nonvisual:yes:2,does-it-live-on-a-farm,chicken,mask,prompt,,yes,,,
4,test,173,jacket:nonvisual:yes:3,is-it-worn-in-winter,jacket,mask,pic,jacket,yes,,,
4,test,174,raccoon:visual:yes:4,does-it-have-stripes,raccoon,nomask,prompt,,yes,,,
4,test,175,camel:visual:yes:1,does-it-have-a-hump,camel,mask,prompt,,yes,,,
4,test,176,toad:nonvisual:yes:3,is-it-an-amphibian,toad,mask,prompt,,yes,,,
4,test,177,chair:nonvisual:yes:1,is-it-used-for-sitting-on,chair,mask,prompt,,yes,,,
4,test,178,swan:nonvisual:yes:1,is-it-graceful,swan,mask,prompt,,yes,,,
4,test,179,tiger:visual:yes:5,does-it-have-large-teeth,tiger,nomask,pic,tiger,yes,,,
4,test,180,carrot:nonvisual:no:3,does-it-live-in-africa,carrot,nomask,prompt,,no,,,
4,test,181,alligator:visual:no:3,is-it-round,alligator,nomask,prompt,,no,,,
4,test,182,train:nonvisual:yes:3,does-it-require-a-conductor,train,mask,prompt,,yes,,,
4,test,183,rabbit:nonvisual:no:3,does-it-roar,rabbit,mask,prompt,,no,,,
4,test,184,lion:nonvisual:yes:2,is-it-a-carnivore,lion,mask,pic,lion,yes,,,
4,test,185,banana:nonvisual:yes:3,does-it-grow-in-tropical-climates,banana,nomask,prompt,,yes,,,
4,test,186,elephant:visual:no:5,does-it-have-hooves,elephant,mask,prompt,,no,,,
4,test,187,strawberry:visual:no:2,does-it-have-a-tail,strawberry,mask,prompt,,no,,,
4,test,188,deer:visual:yes:1,does-it-have-antlers,deer,mask,prompt,,yes,,,
4,test,189,pig:nonvisual:yes:4,is-it-smelly,pig,nomask,pic,pig,yes,,,
4,test,190,deer:visual:no:3,does-it-have-a-lid,deer,nomask,prompt,,no,,,
4,test,191,donkey:visual:no:4,is-it-small,donkey,nomask,pic,train,no,,,
4,test,192,camel:nonvisual:yes:2,does-it-drink-water,camel,mask,pic,camel,yes,,,
4,test,193,jacket:visual:no:3,is-it-tall,jacket,mask,prompt,,no,,,
4,test,194,banana:visual:yes:4,does-it-have-a-skin,banana,mask,prompt,,yes,,,
4,test,195,table:nonvisual:no:2,is-it-a-mammal,table,mask,prompt,,no,,,
4,test,196,penguin:nonvisual:yes:1,is-it-a-bird,penguin,nomask,prompt,,yes,,,
4,test,197,apple:nonvisual:yes:4,is-it-nutritious,apple,mask,prompt,,yes,,,
4,test,198,pig:nonvisual:no:5,does-it-grow-in-hawaii,pig,mask,prompt,,no,,,
4,test,199,mouse:nonvisual:yes:4,is-it-used-in-experiments,mouse,mask,prompt,,yes,,,
4,test,200,alligator:nonvisual:yes:6,is-it-found-in-summer,alligator,nomask,pic,alligator,yes,,,
4,test,201,penguin:nonvisual:yes:5,does-it-waddle,penguin,mask,prompt,,yes,,,
4,test,202,raccoon:visual:no:1,does-it-have-a-mane,raccoon,mask,prompt,,no,,,
4,test,203,bottle:nonvisual:no:2,is-it-juicy,bottle,mask,pic,table,no,,,
4,test,204,zebra:nonvisual:yes:1,is-it-an-animal,zebra,mask,prompt,,yes,,,
5,test,205,train:visual:yes:4,is-it-made-of-metal,train,mask,prompt,,yes,,,
5,test,206,zebra:visual:yes:1,does-it-have-stripes,zebra,nomask,prompt,,yes,,,
5,test,207,camel:nonvisual:no:5,does-it-live-in-a-coop,camel,nomask,pic,deer,no,,,
5,test,208,carrot:nonvisual:no:2,does-it-live-in-swamps,carrot,mask,pic,camel,no,,,
5,test,209,elephant:nonvisual:yes:1,is-it-an-animal,elephant,nomask,prompt,,yes,,,
5,test,210,strawberry:visual:yes:1,is-it-red,strawberry,nomask,prompt,,yes,,,
5,test,211,banana:visual:yes:3,does-it-have-a-peel,banana,mask,prompt,,yes,,,
5,test,212,elephant:visual:yes:3,does-it-have-four-legs,elephant,nomask,prompt,,yes,,,
5,test,213,table:visual:yes:4,is-it-flat,table,mask,pic,table,yes,,,
5,test,214,raccoon:visual:yes:5,does-it-have-a-mask,raccoon,nomask,pic,raccoon,yes,,,
5,test,215,banana:nonvisual:yes:4,is-it-healthy,banana,mask,pic,banana,yes,,,
5,test,216,toad:nonvisual:yes:2,does-it-hop,toad,mask,prompt,,yes,,,
5,test,217,carrot:nonvisual:no:4,is-it-an-animal,carrot,mask,pic,rabbit,no,,,
5,test,218,chair:visual:no:2,does-it-have-a-tail,chair,mask,prompt,,no,,,
5,test,219,dog:nonvisual:yes:3,is-it-a-pet,dog,nomask,prompt,,yes,,,
5,test,220,chair:visual:yes:2,is-it-made-of-wood,chair,mask,pic,chair,yes,,,
5,test,221,bike:visual:yes:2,does-it-have-a-seat,bike,nomask,prompt,,yes,,,
5,test,222,mouse:nonvisual:yes:1,is-it-a-rodent,mouse,nomask,prompt,,yes,,,
5,test,223,tiger:nonvisual:yes:4,does-it-live-in-zoos,tiger,nomask,prompt,,yes,,,
5,test,224,deer:visual:yes:3,does-it-have-eyes,deer,nomask,prompt,,yes,,,
5,test,225,pig:visual:yes:2,does-it-have-a-tail,pig,nomask,prompt,,yes,,,
5,test,226,penguin:visual:yes:1,is-it-black,penguin,nomask,prompt,,yes,,,
5,test,227,mouse:visual:yes:2,is-it-grey,mouse,mask,pic,mouse,yes,,,
5,test,228,jacket:visual:yes:3,does-it-have-a-hood,jacket,mask,pic,jacket,yes,,,
5,test,229,rabbit:nonvisual:no:1,does-it-live-in-zoos,rabbit,nomask,prompt,,no,,,
5,test,230,zebra:nonvisual:yes:4,does-it-travel-in-herds,zebra,mask,prompt,,yes,,,
5,test,231,apple:nonvisual:yes:1,is-it-a-fruit,apple,mask,prompt,,yes,,,
5,test,232,giraffe:nonvisual:yes:4,is-it-a-mammal,giraffe,nomask,pic,giraffe,yes,,,
5,test,233,camel:nonvisual:yes:1,does-it-live-in-the-desert,camel,nomask,prompt,,yes,,,
5,test,234,alligator:visual:yes:5,does-it-have-jaws,alligator,mask,prompt,,yes,,,
5,test,235,deer:nonvisual:yes:2,is-it-fast,deer,nomask,prompt,,yes,,,
5,test,236,donkey:visual:yes:1,does-it-have-legs,donkey,mask,prompt,,yes,,,
5,test,237,alligator:visual:yes:1,does-it-have-a-long-tongue,alligator,mask,prompt,,yes,,,
5,test,238,swan:nonvisual:no:1,is-it-used-by-riding,swan,nomask,pic,carrot,no,,,
5,test,239,tiger:nonvisual:yes:5,does-it-live-in-india,tiger,nomask,prompt,,yes,,,
5,test,240,table:visual:no:4,does-it-have-a-skin,table,nomask,prompt,,no,,,
5,test,241,train:nonvisual:no:1,is-it-a-fruit,train,nomask,prompt,,no,,,
5,test,242,raccoon:nonvisual:yes:1,does-it-eat-garbage,raccoon,mask,prompt,,yes,,,
5,test,243,grasshopper:visual:yes:2,does-it-have-legs,grasshopper,mask,prompt,,yes,,,
5,test,244,chicken:visual:yes:3,does-it-have-a-beak,chicken,mask,prompt,,yes,,,
5,test,245,bottle:visual:yes:1,is-it-made-of-glass,bottle,mask,prompt,,yes,,,
5,test,246,lion:visual:yes:4,does-it-have-teeth,lion,nomask,prompt,,yes,,,
5,test,247,swan:visual:yes:4,does-it-have-wings,swan,nomask,prompt,,yes,,,
5,test,248,toad:nonvisual:no:4,does-it-taste-good,toad,mask,prompt,,no,,,
5,test,249,donkey:visual:yes:3,does-it-have-a-tail,donkey,mask,prompt,,yes,,,
5,test,250,pineapple:nonvisual:yes:3,does-it-grow-on-trees,pineapple,mask,prompt,,yes,,,
5,test,251,apple:visual:yes:5,does-it-have-a-core,apple,mask,prompt,,yes,,,
5,test,252,pig:visual:yes:3,does-it-have-a-snout,pig,mask,prompt,,yes,,,
5,test,253,pineapple:visual:yes:5,does-it-have-a-core,pineapple,nomask,prompt,,yes,,,
5,test,254,grasshopper:nonvisual:yes:1,is-it-an-insect,grasshopper,nomask,prompt,,yes,,,
5,test,255,lion:visual:yes:2,does-it-have-fur,lion,mask,prompt,,yes,,,
